{
  "resourceType": "Bundle",
  "type": "transaction",
  "timestamp": "2025-12-31T10:00:00+01:00",
  "entry": [
    {
      "fullUrl": "urn:uuid:d5582579-7193-4866-5560-a01e723b6552",
      "resource": {
        "resourceType": "Patient",
        "identifier": [
          {
            "system": "https://example.org/demo-mrn",
            "value": "MRN-1000001"
          }
        ],
        "name": [
          {
            "use": "official",
            "family": "Garcia",
            "given": ["Jose"]
          }
        ],
        "gender": "male",
        "birthDate": "1953-06-15",
        "address": [
          {
            "use": "home",
            "city": "Barcelona",
            "country": "ES"
          }
        ]
      },
      "request": { "method": "POST", "url": "Patient" }
    },
    {
      "fullUrl": "urn:uuid:8b5e4c90-5f9b-4d2b-9d12-0f4a2e7f2a01",
      "resource": {
        "resourceType": "Encounter",
        "status": "finished",
        "class": {
          "system": "http://terminology.hl7.org/CodeSystem/v3-ActCode",
          "code": "AMB",
          "display": "ambulatory"
        },
        "subject": { "reference": "urn:uuid:d5582579-7193-4866-5560-a01e723b6552" },
        "period": {
          "start": "2025-12-31T09:10:00+01:00",
          "end": "2025-12-31T09:35:00+01:00"
        },
        "reasonCode": [{ "text": "Chronic conditions monitoring and lab follow-up" }]
      },
      "request": { "method": "POST", "url": "Encounter" }
    },
    {
      "fullUrl": "urn:uuid:2e5f7b6a-9c8f-4e3f-8b13-6c92cfe0d111",
      "resource": {
        "resourceType": "Condition",
        "clinicalStatus": {
          "coding": [
            {
              "system": "http://terminology.hl7.org/CodeSystem/condition-clinical",
              "code": "active"
            }
          ]
        },
        "verificationStatus": {
          "coding": [
            {
              "system": "http://terminology.hl7.org/CodeSystem/condition-ver-status",
              "code": "confirmed"
            }
          ]
        },
        "category": [
          {
            "coding": [
              {
                "system": "http://terminology.hl7.org/CodeSystem/condition-category",
                "code": "problem-list-item"
              }
            ]
          }
        ],
        "code": {
          "coding": [
            {
              "system": "http://hl7.org/fhir/sid/icd-10-cm",
              "code": "I10",
              "display": "Essential (primary) hypertension"
            }
          ],
          "text": "Hypertension"
        },
        "subject": { "reference": "urn:uuid:d5582579-7193-4866-5560-a01e723b6552" },
        "onsetDateTime": "2015-04-01"
      },
      "request": { "method": "POST", "url": "Condition" }
    },
    {
      "fullUrl": "urn:uuid:3c1f9e4a-2a4b-4b63-9a55-8c6c6a93e222",
      "resource": {
        "resourceType": "Condition",
        "clinicalStatus": {
          "coding": [
            {
              "system": "http://terminology.hl7.org/CodeSystem/condition-clinical",
              "code": "active"
            }
          ]
        },
        "verificationStatus": {
          "coding": [
            {
              "system": "http://terminology.hl7.org/CodeSystem/condition-ver-status",
              "code": "confirmed"
            }
          ]
        },
        "category": [
          {
            "coding": [
              {
                "system": "http://terminology.hl7.org/CodeSystem/condition-category",
                "code": "problem-list-item"
              }
            ]
          }
        ],
        "code": {
          "coding": [
            {
              "system": "http://hl7.org/fhir/sid/icd-10-cm",
              "code": "N18.30",
              "display": "Chronic kidney disease, stage 3 unspecified"
            }
          ],
          "text": "Chronic kidney disease (CKD), stage 3"
        },
        "subject": { "reference": "urn:uuid:d5582579-7193-4866-5560-a01e723b6552" },
        "onsetDateTime": "2020-09-15"
      },
      "request": { "method": "POST", "url": "Condition" }
    },
    {
      "fullUrl": "urn:uuid:fa6d3f9c-1e45-4b4e-b123-2d33d0a1a001",
      "resource": {
        "resourceType": "Medication",
        "code": {
          "coding": [
            {
              "system": "http://www.nlm.nih.gov/research/umls/rxnorm",
              "code": "5640",
              "display": "ibuprofen"
            }
          ],
          "text": "Ibuprofen"
        }
      },
      "request": { "method": "POST", "url": "Medication" }
    },
    {
      "fullUrl": "urn:uuid:7b7b8cf2-3b8f-4f9b-8a48-0f0b1f0f4001",
      "resource": {
        "resourceType": "Medication",
        "code": {
          "coding": [
            {
              "system": "http://www.nlm.nih.gov/research/umls/rxnorm",
              "code": "29046",
              "display": "lisinopril"
            }
          ],
          "text": "Lisinopril"
        }
      },
      "request": { "method": "POST", "url": "Medication" }
    },
    {
      "fullUrl": "urn:uuid:8c4b1c92-9d2a-4aaf-9f77-3a8d7c1b9001",
      "resource": {
        "resourceType": "MedicationRequest",
        "status": "active",
        "intent": "order",
        "medicationReference": { "reference": "urn:uuid:fa6d3f9c-1e45-4b4e-b123-2d33d0a1a001" },
        "subject": { "reference": "urn:uuid:d5582579-7193-4866-5560-a01e723b6552" },
        "encounter": { "reference": "urn:uuid:8b5e4c90-5f9b-4d2b-9d12-0f4a2e7f2a01" },
        "authoredOn": "2025-12-10",
        "dosageInstruction": [
          {
            "text": "Take 400 mg orally every 8 hours as needed for pain",
            "route": {
              "coding": [
                {
                  "system": "http://terminology.hl7.org/CodeSystem/v3-RouteOfAdministration",
                  "code": "PO",
                  "display": "Oral route"
                }
              ]
            }
          }
        ],
        "note": [
          {
            "text": "Demo: NSAID exposure is relevant to renal function monitoring in CKD."
          }
        ]
      },
      "request": { "method": "POST", "url": "MedicationRequest" }
    },
    {
      "fullUrl": "urn:uuid:bd1e15c7-2c6c-4d6f-9e0a-62e3b5c15001",
      "resource": {
        "resourceType": "MedicationRequest",
        "status": "active",
        "intent": "order",
        "medicationReference": { "reference": "urn:uuid:7b7b8cf2-3b8f-4f9b-8a48-0f0b1f0f4001" },
        "subject": { "reference": "urn:uuid:d5582579-7193-4866-5560-a01e723b6552" },
        "encounter": { "reference": "urn:uuid:8b5e4c90-5f9b-4d2b-9d12-0f4a2e7f2a01" },
        "authoredOn": "2024-06-01",
        "dosageInstruction": [
          {
            "text": "Take 10 mg orally once daily",
            "route": {
              "coding": [
                {
                  "system": "http://terminology.hl7.org/CodeSystem/v3-RouteOfAdministration",
                  "code": "PO",
                  "display": "Oral route"
                }
              ]
            }
          }
        ]
      },
      "request": { "method": "POST", "url": "MedicationRequest" }
    },

    {
      "fullUrl": "urn:uuid:1f2c6e3a-5d7a-4a35-9c0b-111111111111",
      "resource": {
        "resourceType": "Observation",
        "status": "final",
        "category": [
          {
            "coding": [
              {
                "system": "http://terminology.hl7.org/CodeSystem/observation-category",
                "code": "laboratory",
                "display": "Laboratory"
              }
            ]
          }
        ],
        "code": {
          "coding": [
            {
              "system": "http://loinc.org",
              "code": "2160-0",
              "display": "Creatinine [Mass/volume] in Serum or Plasma"
            }
          ],
          "text": "Serum creatinine"
        },
        "subject": { "reference": "urn:uuid:d5582579-7193-4866-5560-a01e723b6552" },
        "effectiveDateTime": "2025-06-30T08:00:00+01:00",
        "valueQuantity": {
          "value": 1.4,
          "unit": "mg/dL",
          "system": "http://unitsofmeasure.org",
          "code": "mg/dL"
        },
        "referenceRange": [
          {
            "low": { "value": 0.7, "unit": "mg/dL", "system": "http://unitsofmeasure.org", "code": "mg/dL" },
            "high": { "value": 1.3, "unit": "mg/dL", "system": "http://unitsofmeasure.org", "code": "mg/dL" }
          }
        ],
        "interpretation": [
          {
            "coding": [
              {
                "system": "http://terminology.hl7.org/CodeSystem/v3-ObservationInterpretation",
                "code": "H",
                "display": "High"
              }
            ]
          }
        ]
      },
      "request": { "method": "POST", "url": "Observation" }
    },
    {
      "fullUrl": "urn:uuid:2b3d7f4c-6e8b-4b46-8d1a-222222222222",
      "resource": {
        "resourceType": "Observation",
        "status": "final",
        "category": [
          {
            "coding": [
              {
                "system": "http://terminology.hl7.org/CodeSystem/observation-category",
                "code": "laboratory",
                "display": "Laboratory"
              }
            ]
          }
        ],
        "code": {
          "coding": [
            {
              "system": "http://loinc.org",
              "code": "2160-0",
              "display": "Creatinine [Mass/volume] in Serum or Plasma"
            }
          ],
          "text": "Serum creatinine"
        },
        "subject": { "reference": "urn:uuid:d5582579-7193-4866-5560-a01e723b6552" },
        "effectiveDateTime": "2025-09-30T08:00:00+01:00",
        "valueQuantity": {
          "value": 1.6,
          "unit": "mg/dL",
          "system": "http://unitsofmeasure.org",
          "code": "mg/dL"
        },
        "referenceRange": [
          {
            "low": { "value": 0.7, "unit": "mg/dL", "system": "http://unitsofmeasure.org", "code": "mg/dL" },
            "high": { "value": 1.3, "unit": "mg/dL", "system": "http://unitsofmeasure.org", "code": "mg/dL" }
          }
        ],
        "interpretation": [
          {
            "coding": [
              {
                "system": "http://terminology.hl7.org/CodeSystem/v3-ObservationInterpretation",
                "code": "H",
                "display": "High"
              }
            ]
          }
        ]
      },
      "request": { "method": "POST", "url": "Observation" }
    },
    {
      "fullUrl": "urn:uuid:3c4e8a5d-7f9c-4c57-9e2b-333333333333",
      "resource": {
        "resourceType": "Observation",
        "status": "final",
        "category": [
          {
            "coding": [
              {
                "system": "http://terminology.hl7.org/CodeSystem/observation-category",
                "code": "laboratory",
                "display": "Laboratory"
              }
            ]
          }
        ],
        "code": {
          "coding": [
            {
              "system": "http://loinc.org",
              "code": "2160-0",
              "display": "Creatinine [Mass/volume] in Serum or Plasma"
            }
          ],
          "text": "Serum creatinine"
        },
        "subject": { "reference": "urn:uuid:d5582579-7193-4866-5560-a01e723b6552" },
        "encounter": { "reference": "urn:uuid:8b5e4c90-5f9b-4d2b-9d12-0f4a2e7f2a01" },
        "effectiveDateTime": "2025-12-31T07:45:00+01:00",
        "valueQuantity": {
          "value": 1.9,
          "unit": "mg/dL",
          "system": "http://unitsofmeasure.org",
          "code": "mg/dL"
        },
        "referenceRange": [
          {
            "low": { "value": 0.7, "unit": "mg/dL", "system": "http://unitsofmeasure.org", "code": "mg/dL" },
            "high": { "value": 1.3, "unit": "mg/dL", "system": "http://unitsofmeasure.org", "code": "mg/dL" }
          }
        ],
        "interpretation": [
          {
            "coding": [
              {
                "system": "http://terminology.hl7.org/CodeSystem/v3-ObservationInterpretation",
                "code": "H",
                "display": "High"
              }
            ]
          }
        ]
      },
      "request": { "method": "POST", "url": "Observation" }
    },

    {
      "fullUrl": "urn:uuid:4d5f9b6e-80ad-4d68-a13c-444444444444",
      "resource": {
        "resourceType": "DiagnosticReport",
        "status": "final",
        "category": [
          {
            "coding": [
              {
                "system": "http://terminology.hl7.org/CodeSystem/v2-0074",
                "code": "LAB",
                "display": "Laboratory"
              }
            ]
          }
        ],
        "code": {
          "coding": [
            {
              "system": "http://loinc.org",
              "code": "11502-2",
              "display": "Laboratory report"
            }
          ],
          "text": "Renal function follow-up - demo"
        },
        "subject": { "reference": "urn:uuid:d5582579-7193-4866-5560-a01e723b6552" },
        "encounter": { "reference": "urn:uuid:8b5e4c90-5f9b-4d2b-9d12-0f4a2e7f2a01" },
        "effectiveDateTime": "2025-12-31T07:45:00+01:00",
        "issued": "2025-12-31T08:05:00+01:00",
        "result": [
          { "reference": "urn:uuid:1f2c6e3a-5d7a-4a35-9c0b-111111111111" },
          { "reference": "urn:uuid:2b3d7f4c-6e8b-4b46-8d1a-222222222222" },
          { "reference": "urn:uuid:3c4e8a5d-7f9c-4c57-9e2b-333333333333" }
        ],
        "conclusion": "Creatinine shows a progressive increase across the last 6 months in a patient with CKD stage 3 and NSAID exposure."
      },
      "request": { "method": "POST", "url": "DiagnosticReport" }
    }
  ]
}
